Folder: Climate-Science-Machine-Learning

File: nvpm.csv
,UID No,nvPMDB No,Manufacturer,Engine Identification,Combustor Description,Eng Type,B/P Ratio,Pressure Ratio,Rated Thrust (kN),Data Superseded,Superseded by UID No,Fuel Flow T/O (kg/sec),Fuel Flow C/O (kg/sec),Fuel Flow App (kg/sec),Fuel Flow Idle (kg/sec),Fuel LTO Cycle (kg)  ,Fuel Heat of Combustion (MJ/kg),Fuel Hydrogen Content (% mass),Fuel Aromatics Content (% vol),Fuel Naphthalene Content (% vol),Fuel Sulphur Content (ppm by mass),nvPM Mass Concentration Max (mg/m³),nvPM Mass Concentration Characteristic (mg/m³),nvPM Mass Concentration Characteristic (% of CAEP/10 Limit),nvPM Mass Concentration Number Test,nvPM Mass Concentration Number Eng,nvPM EImass T/O (mg/kg),nvPM EImass C/O (mg/kg),nvPM EImass App (mg/kg),nvPM EImass Idle (mg/kg),nvPM EImass Max (mg/kg),nvPMmass Number Test,nvPMmass Number Eng,LTOmass/Foo Avg (mg/kN),LTOmass/Foo Characteristic (mg/kN),LTOmass/Foo Characteristic (% of CAEP/11 InP Limit),LTOmass/Foo Characteristic (% of CAEP/11 NT Limit),nvPM LTO Total Mass (mg),nvPM EInum T/O (#/kg),nvPM EInum C/O (#/kg),nvPM Einum App (#/kg),nvPM EInum Idle (#/kg),nvPM EInum Max (#/kg),nvPMnum Number Test,nvPMnum Number Eng,LTOnum/Foo Avg (#/kN),LTOnum/Foo Characteristic (#/kN),LTOnum/Foo Characteristic (% of CAEP/11 InP Limit),LTOnum/Foo Characteristic (% of CAEP/11 NT Limit),nvPM LTO Total Particle Number (#),nvPM EImass_SL T/O (mg/kg),nvPM EImass_SL C/O (mg/kg),nvPM EImass_SL App (mg/kg),nvPM EImass_SL Idle (mg/kg),nvPM EInum_SL T/O (#/kg),nvPM EInum_SL C/O (#/kg),nvPM EInum_SL App (#/kg),nvPM EInum_SL Idle (#/kg),Ambient Baro Min (kPa),Ambient Baro Max (kPa),Ambient Temp Min (K),Ambient Temp Max (K),Humidity Min (kg/kg),Humidity Max (kg/kg),Test Organisation,Test Location,Initial Test Date,Final Test Date,Remark 1,Remark 2,Remark 3,Remark 4,Remark 5,Remark 6,Remark 7,Remark 8
0,01P14RR101,1,Rolls-Royce plc,Trent 768,Phase5,MTF,5.15,34.4788,304.258,,,2.90696,2.3749,0.781006,0.259224,1027.41,43.1,13.6,19.4,2.0,400.0,374.458,481.99,11.9595,3,1,84.684,97.1492,15.2285,4.31817,96.7845,3,1,149.199,207.393,59.6814,96.9126,45394.9,296546650977752.6,438072717514541.7,389851711163327.2,547588441291880.8,520415411340541.5,3,1,1538329194682472.2,2138350284518310.0,51.2794,76.9191,4.6805e+17,90.7764,105.201,18.1273,6.48247,417991854772399.4,655289757405577.9,852621945661641.1,2075222065507558.5,101.027,101.282,289.25,293.193,0.00735835,0.00862372,Rolls-Royce plc,Derby,2014-06-02,2014-06-02,Certification Report EDNS01000788666,,,,,,,
4,01P18RR105,1,Rolls-Royce plc,Trent 972E-84,Phase5 Tiled,TF,8.41294,38.6822,345.952,,,2.67181,2.2103,0.735126,0.25822,983.23,43.1155,13.75,17.8,1.67,365.0,2125.19,2492.3,64.8939,3,2,62.4422,73.4884,63.5204,6.45086,103.964,3,2,122.137,149.898,43.1361,70.0458,42253.5,231354800976251.88,340757422589118.75,1028988151191978.9,414788736537249.0,1126023188547559.0,3,2,1370169626286202.5,1681602388667406.2,40.3262,60.4893,4.74012e+17,67.4466,80.099,74.566,8.61196,305079245970998.3,519555423745802.5,2543378890463205.0,1045130099020027.2,99.7375,100.47,276.603,286.7,0.002401052,0.0111638,Rolls-Royce plc,Derby,2015-11-18,2016-04-25,Certification Report EDNS01000750023,,,,,,,
8,01P19RR109,1,Rolls-Royce plc,Trent 1000-G3,Phase5 Tiled,TF,9.074,44.6969,323.728,Yes,02P23RR129,2.44924,2.00547,0.666631,0.250174,917.854,43.3373,13.97,15.9,0.11,300.0,2649.08,3409.81,86.6146,3,1,48.6841,84.4271,73.6268,18.9856,152.443,3,1,143.784,199.867,57.5156,93.3957,46547,136954415726714.83,292072549479383.2,855175901583300.5,453809529141752.06,967110633696283.9,3,1,1252087780329440.8,1740461190338394.0,41.7377,62.6065,4.05336e+17,52.233,91.3032,85.0778,22.9003,185599334775388.22,425024318840276.56,1915605637097649.8,902355842660940.5,100.779,101.559,287.007,292.579,0.008002406,0.009,Rolls-Royce plc,Derby,2018-10-04,2018-10-04,Certification Report EDNS01000740804,,,,,,,
12,01P19RR113,1,Rolls-Royce plc,Trent 1000-L3,Phase5 Tiled,TF,9.01653,46.0013,334.68,Yes,02P23RR133,2.55619,2.08963,0.687371,0.25564,946.959,43.3373,13.97,15.9,0.11,300.0,2649.08,3409.81,87.7011,3,1,44.8013,76.3119,76.5156,19.1381,152.96,3,1,137.786,191.528,55.1161,89.4993,46114,107891745353601.12,261719357333398.75,867552436838648.4,460138224180249.3,961466640230606.0,3,1,1221458224638219.5,1704520767380433.2,40.8758,61.3137,4.10395e+17,47.9974,82.3977,88.2247,23.0541,145612462859429.16,373337950813093.6,1935823620003876.2,911539540725719.1,100.779,101.559,287.007,292.579,0.008002406,0.009,Rolls-Royce plc,Derby,2018-10-04,2018-10-04,Certification Report EDNS01000740804,,,,,,,
16,01P19RR117,1,Rolls-Royce plc,Trent 1000-Q3,Phase5 Tiled,TF,8.93421,47.9558,350.902,Yes,02P23RR137,2.72092,2.21689,0.718595,0.263592,990.575,43.3373,13.97,15.9,0.11,300.0,2649.08,3409.81,89.2488,3,1,41.5701,65.3419,80.9354,19.3164,153.666,3,1,130.443,181.322,52.1791,84.73,45772.9,70917536306603.88,218020701962718.6,884727251403255.4,469324043326364.5,972287331549675.6,3,1,1189714765722548.0,1653759752185916.0,39.6585,59.4878,4.17474e+17,44.4602,70.3894,93.0202,23.2268,95436739920099.55,303401290601305.5,1959862798141251.5,925422467240937.5,100.779,101.559,287.007,292.579,0.008002406,0.009,Rolls-Royce plc,Derby,2018-10-04,2018-10-04,Certification Report EDNS01000740804,,,,,,,
20,02P23RR126,2,Rolls-Royce plc,Trent 1000-AE3,Phase5 Tiled,TF,9.14026,43.1772,310.864,,,2.32686,1.90807,0.642506,0.243694,883.957,43.3373,13.97,15.9,0.11,300.0,2649.08,3409.81,85.305,3,1,55.1251,94.581,70.3242,18.7686,151.786,3,1,151.797,211.005,60.7208,98.6003,47188.1,173551713884702.8,326335425254839.5,841282192001879.6,445266620610053.7,958956190568291.6,3,1,1280798020768177.8,1780369781440336.0,42.6947,64.0421,3.98154e+17,59.258,102.475,81.4645,22.6748,237521795962746.56,487717763315682.06,1890923326511861.8,889631480917572.1,100.779,101.559,287.007,292.579,0.008002406,0.009,Rolls-Royce plc,Derby,2018-10-04,2018-10-04,Certification Report EDNS01000740804,Correction of minor error in reported nvPM data,,,,,,
24,02P23RR130,2,Rolls-Royce plc,Trent 1000-H3,Phase5 Tiled,TF,9.28204,40.3476,287.137,,,2.10752,1.7323,0.598326,0.23231,823.181,43.3373,13.97,15.9,0.11,300.0,2649.08,3409.81,82.7371,3,1,71.5551,114.045,64.1533,18.3136,150.392,3,1,168.076,233.634,67.2327,109.175,48260.9,236022257835539.5,417370290369688.25,811570179682638.4,434505619961917.2,952764426433025.9,3,1,1359404058743064.2,1889635889273094.5,45.315,67.9725,3.90335e+17,77.2185,123.992,74.6573,22.1854,334936652701234.56,658661697593723.1,1829466221053477.8,875973542246082.1,100.779,101.559,287.007,292.579,0.008002406,0.009,Rolls-Royce plc,Derby,2018-10-04,2018-10-04,Certification Report EDNS01000740804,Correction of minor error in reported nvPM data,,,,,,
28,02P23RR134,2,Rolls-Royce plc,Trent 1000-M3,Phase5 Tiled,TF,8.91709,48.7886,358.055,,,2.80167,2.27388,0.732405,0.267041,1010.18,43.3373,13.97,15.9,0.11,300.0,2649.08,3409.81,89.9153,3,1,40.9655,61.2044,82.915,19.385,153.94,3,1,128.028,177.965,51.213,83.1612,45841.1,103709238921765.3,195325516197096.38,891064444980153.5,471720960785230.7,967889609695535.4,3,1,1184093963890674.0,1645946571991484.5,39.4711,59.2067,4.23971e+17,43.7915,65.8687,95.1624,23.2908,141485416884119.84,269738405760083.1,1966660349105570.0,928362032586359.8,100.779,101.559,287.007,292.579,0.008002406,0.009,Rolls-Royce plc,Derby,2018-10-04,2018-10-04,Certification Report EDNS01000740804,Correction of minor error in reported nvPM data,,,,,,
32,02P23RR138,2,Rolls-Royce plc,Trent 1000-R3,Phase5 Tiled,TF,8.88349,49.5509,363.873,,,2.87194,2.32192,0.743517,0.269895,1026.6,43.3373,13.97,15.9,0.11,300.0,2649.08,3409.81,90.4434,3,1,40.8116,58.3213,84.522,19.4339,154.135,3,1,126.59,175.966,50.6376,82.227,46062.7,99613180453605.55,184355784771313.8,896117462908385.5,474920271854864.56,968528026617816.0,3,1,1177290581007790.2,1636489548245468.8,39.2444,58.8665,4.28385e+17,43.6229,62.7209,96.8993,23.3354,136431501773882.69,253114109139215.53,1971648927427271.2,933441596647606.5,100.779,101.559,287.007,292.579,0.008002406,0.009,Rolls-Royce plc,Derby,2018-10-04,2018-10-04,Certification Report EDNS01000740804,Correction of minor error in reported nvPM data,,,,,,
36,02P23RR142,2,Rolls-Royce plc,Trent7000-72C,Phase5 Tiled,TF,8.93939,45.7702,327.918,,,2.502,2.03951,0.670805,0.258873,939.134,43.3373,13.97,15.9,0.11,300.0,2649.08,3409.81,87.0358,3,1,48.0692,84.073,74.0088,18.8269,152.496,3,1,143.947,200.094,57.5809,93.5017,47203,145142502143383.84,283044578951379.06,857579127030976.4,447015852471469.7,961993506499225.9,3,1,1250433316303935.8,1738161407150313.8,41.6825,62.5238,4.1004e+17,51.5624,90.9142,85.4946,22.736,196346174227907.78,411891333762948.7,1920119169793732.0,891993636880345.9,100.779,101.559,287.007,292.579,0.008002406,0.009,Rolls-Royce plc,Derby,2018-10-04,2018-10-04,Certification Report EDNS01000740804,Correction of minor error in reported nvPM data,,,,,,
40,01P18RR123,1,Rolls-Royce plc,Trent XWB-79,Phase5 Tiled,TF,9.15,38.8098,355.168,,,2.60098,2.12912,0.75549,0.279678,1007.9,43.1823,13.84,16.8,1.22667,373.333,2381.33,2619.44,68.8663,4,3,44.9455,73.3438,87.3722,25.1454,132.437,4,3,147.355,166.352,47.8711,77.7347,52335.7,201485391119502.66,350714267300236.2,983168405317651.4,777171040946489.4,1048324289494825.6,4,3,1796106067037691.2,2027665462900983.5,48.6251,72.9376,6.3792e+17,48.8021,80.226,100.32,31.0531,293740416287398.8,575553610034506.5,2140179227100465.8,1833155548770504.8,98.6,101.9,283.0,295.0,0.00062,0.00964,Rolls-Royce plc,Derby,2014-07-03,2018-12-08,Certification report EDNS01000844195,,,,,,,
44,01P06BR014,1,Rolls-Royce Deutschland,BR700-710C4-11,Annular,MTF,4.05,24.95,68.77,,,0.753223,0.619664,0.220877,0.0905934,307.767,43.33,13.9467,15.4333,0.16,44.6667,2649.61,3410.49,41.9766,3,1,600.956,581.392,8.31286,9.94648,612.764,3,1,994.811,1382.83,43.6425,178.287,68413.2,3674739137375111.5,5356789184381612.0,1067436105722207.9,1223492983895306.2,7004721050920909.0,3,1,1.1399e+16,1.58452e+16,83.6311,169.587,7.8391e+17,659.705,650.202,11.3897,13.9224,5813909594295659.0,9042024500639390.0,2803053622298044.0,3286457608755910.0,100.3,100.6,287.6,291.7,0.00736,0.00801,Rolls-Royce Deutschland,Dahlewitz,2019-10-11,2019-10-12,Certification Report EDNS01000832272 Issue 2,,,,,,,
48,01P06AL029,1,Rolls-Royce Corporation,AE3007A1/1,Type 3 (reduced emissions),MTF,4.82958,17.7001,35.0102,,,0.385675,0.32425,0.118561,0.0499993,165.453,43.1995,13.69,16.2,0.415,81.2,202.092,260.0,2.1,3,1,43.1427,34.8851,9.84816,18.4055,43.1427,3,1,111.619,155.2,4.0,15.4,3907.79,282685684968022.4,309218994336635.9,325901143990138.56,638163020866510.5,638163020866510.5,3,1,2195453578934425.8,3050000000000000.0,13.4,25.3,7.68633e+16,48.2803,39.7541,12.7352,25.6789,674799676200927.8,795652925491779.1,1244650620047368.8,2478775183236977.5,98.8,99.9,272.8,283.2,0.00179,0.00674,MS&T,Indianapolis,2015-03-23,2015-03-25,Certification Report EDNS04000123846,,,,,,,
52,01P10AL033,1,Rolls-Royce Corporation,AE3007A2,Type 3 (reduced emissions),MTF,4.79,20.197,42.2331,,,0.466294,0.387921,0.138251,0.0546188,189.175,43.1995,13.69,16.2,0.415,81.2,266.677,343.0,3.1,3,1,48.7993,43.8218,9.97889,16.6735,48.7993,3,1,117.24,163.0,4.4,17.0,4951.4,197332190524651.03,267616590137579.88,298832370835393.25,550514084772766.0,550514084772766.0,3,1,1761417868206275.8,2450000000000000.0,11.2,21.3,7.43901e+16,53.5436,48.8669,12.8094,22.8463,421736711486604.5,627785939035082.1,1085532736699575.5,2114515699173402.0,98.8,99.9,272.8,283.2,0.00179,0.00674,MS&T,Indianapolis,2015-03-23,2015-03-25,Certification Report EDNS04000123846,,,,,,,
53,01P06AL034,1,Rolls-Royce Corporation,AE3007A3,Type 3 (reduced emissions),MTF,4.85851,17.1487,33.5653,,,0.368813,0.310245,0.114428,0.0490588,160.437,43.1995,13.69,16.2,0.415,81.2,188.352,242.0,1.9,3,1,41.3455,32.8059,9.98624,18.7923,41.3455,3,1,110.125,153.1,3.9,15.0,3696.38,293709885152151.06,312347026235327.6,332255816409537.4,658652921412769.8,658652921412769.8,3,1,2290267770587668.5,3180000000000000.0,13.9,26.1,7.68735e+16,46.4698,37.5777,12.9134,26.2898,715176392577451.1,818551126279227.1,1276081607063982.8,2566006989942539.0,98.8,99.9,272.8,283.2,0.00179,0.00674,MS&T,Indianapolis,2015-03-23,2015-03-25,Certification Report EDNS04000123846,,,,,,,
"54,01P22PW141,1,Pratt & Whitney Canada,PW814GA,TALON X,MTF,5.70668,33.5597,68.6316,,,0.672078,0.555613,0.198329,0.0696408,257.807,43.26,13.82,16.025,0.68,120.0,36.4018,46.8553,0.576031,3,1,9.49266,4.08398,1.20579,1.30239,9.49266,3,1,11.1663,15.5217,0.489406,,766.359,138590552128864.77,73127394859273.48,4909691036624.27,34199517882815.863,138590552128864.77,3,1,192686455953785.44,267843280447296.9,1.41252,,1.32244e+16,12.6351,5.46845,1.35713,1.95988,530209809516556.6,283801149922638.0,10354574930000.547,173895932063048.2,100.0,101.4,293.6,303.0,0.0065,0.0149,Pratt & Whitney Canada,""Longueuil & Mirabel, Quebec, Canada"",2019-07-16,2019-07-18,P&WC ER 7572 Rev. D includes CO-0003044 and CO-0005972.,Engines tested: GA0020B19.,""Data acquired using procedures and systems prescribed in Annex 16 Volume II, Amd. 9."",""Thermophoretic correction applied as described in Annex 16 Volume II, Amd. 9, Appendix 7, Section 6.2.1."",Data corrected for fuel hydrogen content according to CAEP11.WP91 App.A,""Export classification: EIPA NSR, DPA No, US-I 9E991, OUS-I NSR."",,"
"55,01P22PW142,1,Pratt & Whitney Canada,PW815GA,TALON X,MTF,5.65376,34.6468,71.2205,,,0.70114,0.578856,0.20438,0.0709457,265.583,43.26,13.82,16.025,0.68,120.0,43.9576,56.5807,0.710469,3,1,11.0351,5.02019,1.23962,1.34652,11.0351,3,1,12.8949,17.9245,0.575263,,918.378,151471204093696.84,86713852876807.03,4722075434552.778,32977582122874.895,151471204093696.84,3,1,210159382802319.94,292131474565359.9,1.56466,,1.49676e+16,14.5391,6.74733,1.38759,2.00488,562926761597841.4,340346736589920.06,9710235688345.11,163862525394543.78,100.0,101.4,293.6,303.0,0.0065,0.0149,Pratt & Whitney Canada,""Longueuil & Mirabel, Quebec, Canada"",2019-07-16,2019-07-18,P&WC ER 7572 Rev. D includes CO-0003044 and CO-0005972.,Engines tested: GA0020B19.,""Data acquired using procedures and systems prescribed in Annex 16 Volume II, Amd. 9."",""Thermophoretic correction applied as described in Annex 16 Volume II, Amd. 9, Appendix 7, Section 6.2.1."",Data corrected for fuel hydrogen content according to CAEP11.WP91 App.A,""Export classification: EIPA NSR, DPA No, US-I 9E991, OUS-I NSR."",,"
"56,01P16PW143,1,Pratt & Whitney Canada,PW307A,TALON II,MTF,4.25997,20.21,28.49,Yes,03P16PW192,0.326698,0.272269,0.10155,0.0447272,143.807,43.059,13.455,21.55,0.705,40.5,970.968,1249.8,8.99378,1,3,56.9571,36.0186,6.65456,272.727,272.727,1,3,746.494,746.494,18.503,,21267.6,646151049762146.8,629288178328884.6,288180276960477.25,1918252162022788.0,1918252162022788.0,1,3,6049522570859419.0,6049522570859419.0,25.7624,,1.72351e+17,72.4475,47.4945,10.2151,335.109,1997179174183375.0,2189360872450697.0,1478755348220961.8,5225332357646527.0,99.42,100.55,288.7,291.3,0.0071,0.0099,Pratt & Whitney Canada,""Mississauga, Ontario, Canada"",2016-09-30,2016-10-03,""Data acquired using procedures and systems prescribed in Annex 16 Volume II, Amd. 9"",""Thermophoretic correction applied as described in Annex 16 Volume II, Amd. 9, Appendix 7, Section 6.2.1"",Data corrected for fuel hydrogen content according to CAEP11.WP91 App.A,Export Classification: Technical Data: Yes  / ECL: NSR / ECCN:  N/A /  P-ECCN:  9E991,Data reported in ER9043 Part II Rev. C,,,"
"57,03P16PW192,3,Pratt & Whitney Canada,PW307A,TALON II,MTF,4.25997,20.21,28.49,,,0.326698,0.272269,0.10155,0.0447272,143.807,43.06,13.455,21.6,0.7,41.0,970.968,1249.8,8.99378,3,1,56.9571,36.0186,6.65456,272.727,272.727,3,1,746.494,1037.66,25.72,,21267.6,646151049762146.8,629288178328884.6,288180276960477.25,1918252162022788.0,1918252162022788.0,3,1,6049522570859419.0,8409122283652236.0,35.8109,,1.72351e+17,72.4475,47.4945,10.2151,335.109,1997179174183375.0,2189360872450697.0,1478755348220961.8,5225332357646527.0,99.42,100.55,288.7,291.3,0.0071,0.0099,Pratt & Whitney Canada,""Mississauga, Ontario, Canada"",2016-09-30,2016-10-03,Data revised to correct calculation errors,""Data acquired using procedures and systems prescribed in Annex 16 Volume II, Amd. 9"",""Thermophoretic correction applied as described in Annex 16 Volume II, Amd. 9, Appendix 7, Section 6.2.1"",Data corrected for fuel hydrogen content according to CAEP11.WP91 App.A,Export Classification: Technical Data: Yes  / ECL: NSR / ECCN:  N/A /  P-ECCN:  9E991,Data reported in ER9043 Part II Rev. C,,"
[...]
"165,01P22FC001,1,CFM International,CFM56-7B26/3 (Research Measurement),Tech Insertion,TF,5.1,27.7,117.0,,,1.213,0.986,0.331,0.108,429.0,43.3,13.98,17.7,0.745,420.0,1750.0,2253.0,36.8,3,1,69.1,46.7,1.1,1.8,69.1,3,1,85.4,118.7,5.6,26.8,9989.0,452000000000000.0,429000000000000.0,71400000000000.0,26700000000000.0,452000000000000.0,3,1,761000000000000.0,1060000000000000.0,7.8,19.5,8.9e+16,78.8,55.1,1.6,2.8,1120000000000000.0,1280000000000000.0,451000000000000.0,179000000000000.0,96.61,96.87,294.7,302.9,0.00725,0.01011,Empa,""SR Technics, Zurich, Switzerland"",2013-08-17,2013-08-18,First in the world nvPM certification-like test (Year 2013),Engine S/N 897-397,""Report """"Non-volatile Particulate Matter Emissions Certification of a CFM56-7B26/3"""" May 2020"",nvPM mass measurement at limit of detection for approach and idle mode,""Provided by Swiss Federal Office of Civil Aviation, Switzerland"",,,"
"166,01P11CM111,1,CFM International,CFM56-7B20E,Tech Insertion,TF,5.5,22.4,91.6,,,0.896,0.746,0.268,0.094,348.0,43.27,13.83,18.7,0.67,519.0,707.0,910.0,13.1,3,1,33.5,22.7,0.95,0.91,33.5,3,1,40.3,56.0,2.1,9.1,3691.0,422000000000000.0,360000000000000.0,39300000000000.0,56300000000000.0,420000000000000.0,3,1,678000000000000.0,942000000000000.0,5.7,12.6,6.21e+16,41.5,29.1,1.46,1.56,1380000000000000.0,1290000000000000.0,222000000000000.03,381000000000000.0,99.5,100.2,295.5,311.8,0.00658,0.01217,Safran Aircraft Engines,""Villaroche, France"",2019-07-25,2019-07-30,Engine 849-166/1,""Certification Report CR-2097/3 SUPPLEMENT 2-5B, CR-2097/3 SUPPLEMENT 2-7B"",,,,,,"
"169,01P11CM114,1,CFM International,CFM56-7B24E,Tech Insertion,TF,5.3,25.6,107.6,,,1.086,0.895,0.308,0.103,398.0,43.27,13.83,18.7,0.67,519.0,1114.0,1434.0,22.5,3,1,48.6,33.6,1.29,0.8,48.6,3,1,59.6,82.8,3.5,16.3,6408.0,428000000000000.0,424000000000000.0,54600000000000.0,36900000000000.0,431000000000000.0,3,1,739000000000000.0,1030000000000000.0,7,16.6,7.95e+16,58.3,41.7,2.0,1.24,1240000000000000.0,1390000000000000.0,310000000000000.0,212000000000000.0,99.5,100.2,295.5,311.8,0.00658,0.01217,Safran Aircraft Engines,""Villaroche, France"",2019-07-25,2019-07-30,Engine 849-166/1,""Certification Report CR-2097/3 SUPPLEMENT 2-5B, CR-2097/3 SUPPLEMENT 2-7B"",,,,,,"
"172,01P11CM117,1,CFM International,CFM56-7B26E/B1,Tech Insertion,TF,5.1,27.7,117.0,,,1.213,0.986,0.331,0.108,429.0,43.27,13.83,18.7,0.67,519.0,1504.0,1936.0,31.6,3,1,61.8,40.3,1.57,0.75,61.8,3,1,73.9,103.0,4.8,23.3,8646.0,415000000000000.0,433000000000000.0,65400000000000.0,29500000000000.0,433000000000000.0,3,1,750000000000000.0,1040000000000000.0,7.7,19.3,8.77e+16,72.3,49.2,2.42,1.11,1100000000000000.0,1340000000000000.0,369000000000000.0,154000000000000.0,99.5,100.2,295.5,311.8,0.00658,0.01217,Safran Aircraft Engines,""Villaroche, France"",2019-07-25,2019-07-30,Engine 849-166/1,""Certification Report CR-2097/3 SUPPLEMENT 2-5B, CR-2097/3 SUPPLEMENT 2-7B"",,,,,,"
"175,01P11CM120,1,CFM International,CFM56-7B26E/B2F,Tech Insertion,TF,5.1,27.7,117.0,,,1.213,0.986,0.331,0.108,429.0,43.27,13.83,18.7,0.67,519.0,1504.0,1936.0,31.6,3,1,61.8,40.3,1.57,0.75,61.8,3,1,73.9,103.0,4.8,23.3,8646.0,415000000000000.0,433000000000000.0,65400000000000.0,29500000000000.0,433000000000000.0,3,1,750000000000000.0,1040000000000000.0,7.7,19.3,8.77e+16,72.3,49.2,2.42,1.11,1100000000000000.0,1340000000000000.0,369000000000000.0,154000000000000.0,99.5,100.2,295.5,311.8,0.00658,0.01217,Safran Aircraft Engines,""Villaroche, France"",2019-07-25,2019-07-30,Engine 849-166/1,""Certification Report CR-2097/3 SUPPLEMENT 2-5B, CR-2097/3 SUPPLEMENT 2-7B"",,,,,,"
"178,01P11CM123,1,CFM International,CFM56-7B27E/B3,Tech Insertion,TF,5.1,29.0,121.4,,,1.293,1.031,0.343,0.11,445.0,43.27,13.83,18.7,0.67,519.0,1788.0,2301.0,38.3,3,1,70.8,44.0,1.72,0.74,70.8,3,1,83.2,116.0,5.7,28.2,10104.0,402000000000000.0,433000000000000.0,71000000000000.0,26600000000000.0,433000000000000.0,3,1,751000000000000.0,1040000000000000.0,8.0,20.5,9.12e+16,82.1,53.2,2.65,1.07,1010000000000000.0,1300000000000000.0,398000000000000.0,134000000000000.02,99.5,100.2,295.5,311.8,0.00658,0.01217,Safran Aircraft Engines,""Villaroche, France"",2019-07-25,2019-07-30,Engine 849-166/1,""Certification Report CR-2097/3 SUPPLEMENT 2-5B, CR-2097/3 SUPPLEMENT 2-7B"",,,,,,"
"181,01P11CM126,1,CFM International,CFM56-7B27E/B1F,Tech Insertion,TF,5.1,29.0,121.4,,,1.293,1.031,0.343,0.11,445.0,43.27,13.83,18.7,0.67,519.0,1788.0,2301.0,38.3,3,1,70.8,44.0,1.72,0.74,70.8,3,1,83.2,116.0,5.7,28.2,10104.0,402000000000000.0,433000000000000.0,71000000000000.0,26600000000000.0,433000000000000.0,3,1,751000000000000.0,1040000000000000.0,8.0,20.5,9.12e+16,82.1,53.2,2.65,1.07,1010000000000000.0,1300000000000000.0,398000000000000.0,134000000000000.02,99.5,100.2,295.5,311.8,0.00658,0.01217,Safran Aircraft Engines,""Villaroche, France"",2019-07-25,2019-07-30,Engine 849-166/1,""Certification Report CR-2097/3 SUPPLEMENT 2-5B, CR-2097/3 SUPPLEMENT 2-7B"",,,,,,"
"184,01P20CM129,1,CFM International,LEAP-1A26CJ,TAPS II,TF,10.8,33.27215,120.636,,,0.86094,0.709927,0.243731,0.0911006,330.482,43.26,13.69,16.5,0.66,150.0,160.0,205.9436,3.41811,3,1,1.35756,1.08244,1.97358,0.574179,7.60322,3,1,2.88115,4.00494,0.195021,0.96036,347.57,8.91285e+10,7.66821e+10,68930572878845.75,3710158486647.142,218758817340458.34,3,1,37881014847622.99,52656400955828.45,0.401761,1.02193,4569805543138653.0,1.62703,1.23518,2.98856,0.683861,1.19654e+11,1.00053e+11,456827575055365.44,10901015768971.475,97.8,98.8,274.6,279.8,0.002,0.0032,CFM International,""PTO, Ohio"",2016-11-21,2016-12-02,Certification Report CRL-2201_2/Rev. 4,Engine S/N 600-104,,,,,,"
"187,01P20CM132,1,CFM International,LEAP-1A35A/33/33B2/32/30,TAPS II,TF,10.45,38.51118,143.055,,,1.06165,0.869312,0.283854,0.0980881,380.481,43.26,13.69,16.5,0.66,150.0,160.0,205.9436,3.71002,3,1,2.97546,1.36359,4.81087,0.621811,7.53804,3,1,4.97735,6.91875,0.440222,2.64055,712.033,1.82264e+11,8.9438e+10,150444133193931.88,11523783047847.719,217040395993263.25,3,1,84098661399510.9,116901113983195.58,1.10471,3.49881,1.20307e+16,3.5855,1.63505,7.06672,0.769434,2.43711e+11,1.20036e+11,922268968907276.5,45856960227215.08,97.8,98.8,274.6,279.8,0.002,0.0032,CFM International,""PTO, Ohio"",2016-11-21,2016-12-02,Certification Report CRL-2201_2/Rev. 4,Engine S/N 600-104,,,,,,"
"190,01P20CM135,1,CFM International,LEAP-1B25,TAPS II,TF,8.3551,40.135,119.15,,,0.959828,0.784489,0.260136,0.0905434,347.546,43.27,13.84,14.8,1.97,840.0,66.0,85.0,1.40218,3,1,0.0262803,0.0127452,2.70405,0.204647,3.76641,3,1,1.67944,2.33451,0.111938,0.546344,200.106,2.71258e+10,2.68338e+10,100105527836655.81,21719511988829.54,117116659361879.02,3,1,78233657448305.78,108748481301509.3,0.819278,2.06249,9321546112747244.0,0.0290692,0.014014,4.1216,0.464656,4.12472e+10,4.30934e+10,674621521560229.4,414805591994678.44,98.02,98.16,290.6,296.5,0.0048,0.0079,CFM International,""PTO, Ohio"",2016-03-08,2016-03-09,Certification Report CRL-2201b/Rev. 5,Engine S/N 602-109/1,,,,,,"
"193,01P20CM138,1,CFM International,LEAP-1B28BBJ1,TAPS II,TF,8.2938,41.991,130.409,,,1.07473,0.872562,0.285171,0.0969101,379.938,43.27,13.84,14.8,1.97,840.0,66.0,85.0,1.4653,3,1,0.0556832,0.0142508,3.80929,0.202028,3.809,3,1,2.26526,3.14882,0.170806,0.901064,295.409,2.94372e+10,2.60052e+10,118319658297562.0,19116915068214.527,117245891819796.62,3,1,84291617567929.94,117169332176716.61,0.975923,2.68553,1.09923e+16,0.0614292,0.0156925,5.55544,0.42165,4.79778e+10,4.16521e+10,711814895031311.5,280882969465448.97,98.02,98.16,290.6,296.5,0.0048,0.0079,CFM International,""PTO, Ohio"",2016-03-08,2016-03-09,Certification Report CRL-2201b/Rev. 5,Engine S/N 602-109/1,,,,,,"
"195,01P20CM140,1,CFM International,LEAP-1B28/28B1/28B2/28B3,TAPS II,TF,8.2938,41.991,130.409,,,1.07473,0.872562,0.285171,0.0969101,379.938,43.27,13.84,14.8,1.97,840.0,66.0,85.0,1.4653,3,1,0.0556832,0.0142508,3.80929,0.202028,3.809,3,1,2.26526,3.14882,0.170806,0.901064,295.409,2.94372e+10,2.60052e+10,118319658297562.0,19116915068214.527,117245891819796.62,3,1,84291617567929.94,117169332176716.61,0.975923,2.68553,1.09923e+16,0.0614292,0.0156925,5.55544,0.42165,4.79778e+10,4.16521e+10,711814895031311.5,280882969465448.97,98.02,98.16,290.6,296.5,0.0048,0.0079,CFM International,""PTO, Ohio"",2016-03-08,2016-03-09,Certification Report CRL-2201b/Rev. 5,Engine S/N 602-109/1,,,,,,"